onset	duration	trial_type	participant	date	neg_pics	img_start	rating_start	rating	rating_rt	pt_code	baseline	cueing	cubricID
365.343503760507	1	Uncued	NUW7V3	2021_Dec_01_2114	2800	365.343503760507	370.345159328285	3	0.431113612376066	PT16	2	Uncued	1122021301
381.432197660937	1	Uncued	NUW7V3	2021_Dec_01_2114	8485	381.432197660937	386.425536331316	3	0.201539076474546	PT16	2	Uncued	1122021301
397.495913499705	1	Cued	NUW7V3	2021_Dec_01_2114	3225	397.495913499705	402.497569637679	4	0.252223911906185	PT16	5	Cued	1122021301
422.087433868007	1	Cued	NUW7V3	2021_Dec_01_2114	9050	422.087433868007	427.089119656239	3	0.288372423206965	PT16	2	Cued	1122021301
437.142486414536	1	Cued	NUW7V3	2021_Dec_01_2114	2717	437.142486414536	442.144183036517	5	0.271119679275216	PT16	5	Cued	1122021301
450.23023692358	1	Uncued	NUW7V3	2021_Dec_01_2114	6550	450.23023692358	455.231893346653	4	0.285828488081279	PT16	3	Uncued	1122021301
466.302238583995	1	Cued	NUW7V3	2021_Dec_01_2114	3215	466.302238583995	471.303978255869	2	0.308943145059857	PT16	3	Cued	1122021301
490.852127138938	1	Uncued	NUW7V3	2021_Dec_01_2114	9301	490.852127138938	495.845485766222	4	0.814961292158841	PT16	3	Uncued	1122021301
506.890869762724	1	Uncued	NUW7V3	2021_Dec_01_2114	9622	506.890869762724	511.892510220273	2	0.325711221311394	PT16	1	Uncued	1122021301
520.962217691966	1	Cued	NUW7V3	2021_Dec_01_2114	2799	520.962217691966	525.95557860004	2	0.236384401910982	PT16	2	Cued	1122021301
546.495764393119	1	Cued	NUW7V3	2021_Dec_01_2114	9320	546.495764393119	551.497472704143	3	0.388127580498804	PT16	4	Cued	1122021301
559.591856318042	1	Cued	NUW7V3	2021_Dec_01_2114	9230	559.591856318042	564.593545242359	3	0.331927511962022	PT16	2	Cued	1122021301
572.662923140031	1	Uncued	NUW7V3	2021_Dec_01_2114	3230	572.662923140031	577.664587830963	3	0.3796313560606	PT16	3	Uncued	1122021301
586.692644387691	1	Uncued	NUW7V3	2021_Dec_01_2114	3051	586.692644387691	591.694330461021	5	0.272662062893687	PT16	5	Uncued	1122021301
600.722318308977	1	Cued	NUW7V3	2021_Dec_01_2114	3301	600.722318308977	605.72399354856	1	0.214832085456692	PT16	5	Cued	1122021301
624.288539879654	1	Uncued	NUW7V3	2021_Dec_01_2114	9000	624.288539879654	629.29022680828	2	0.289289870616813	PT16	1	Uncued	1122021301
640.327264827324	1	Cued	NUW7V3	2021_Dec_01_2114	9571	640.327264827324	645.328960594009	2	0.220264069759651	PT16	2	Cued	1122021301
656.374290991966	1	Cued	NUW7V3	2021_Dec_01_2114	9429	656.374290991966	661.375991890426	2	0.29698183180426	PT16	2	Cued	1122021301
681.957892745665	1	Uncued	NUW7V3	2021_Dec_01_2114	9582	681.957892745665	686.959559432289	2	0.439057030560434	PT16	1	Uncued	1122021301
697.029596478005	1	Uncued	NUW7V3	2021_Dec_01_2114	9900	697.029596478005	702.031321039652	2	0.48831694301316	PT16	2	Uncued	1122021301
710.125699521775	1	Cued	NUW7V3	2021_Dec_01_2114	6000	710.125699521775	715.119015954462	2	0.207134422295894	PT16	1	Cued	1122021301
723.171701612118	1	Uncued	NUW7V3	2021_Dec_01_2114	9410	723.171701612118	728.165065656277	5	0.261940643604248	PT16	4	Uncued	1122021301
748.721962790979	1	Uncued	NUW7V3	2021_Dec_01_2114	6315	748.721962790979	753.723633468983	3	0.339988960980918	PT16	3	Uncued	1122021301
761.784659117026	1	Cued	NUW7V3	2021_Dec_01_2114	3016	761.784659117026	766.786344905259	3	0.299078447170359	PT16	3	Cued	1122021301
774.880724812876	1	Cued	NUW7V3	2021_Dec_01_2114	3170	774.880724812876	779.882428277223	5	0.486800503369523	PT16	4	Cued	1122021301
790.944478854861	1	Uncued	NUW7V3	2021_Dec_01_2114	1112	790.944478854861	795.937812963663	3	0.209147788859809	PT16	3	Uncued	1122021301
804.982499894	1	Cued	NUW7V3	2021_Dec_01_2114	9041	804.982499894	809.975877622893	2	0.192885762687183	PT16	1	Cued	1122021301
827.523424377644	1	Cued	NUW7V3	2021_Dec_01_2114	9423	827.523424377644	832.525107599988	3	0.332312110021121	PT16	2	Cued	1122021301
841.594810510104	1	Cued	NUW7V3	2021_Dec_01_2114	2095	841.594810510104	846.59649544304	2	0.29271561582209	PT16	2	Cued	1122021301
855.674548607094	1	Uncued	NUW7V3	2021_Dec_01_2114	9420	855.674548607094	860.676217859604	3	0.28177353018782	PT16	3	Uncued	1122021301
868.720579777497	1	Cued	NUW7V3	2021_Dec_01_2114	9630	868.720579777497	873.72226128925	2	0.779522391361752	PT16	3	Cued	1122021301
884.767634737101	1	Uncued	NUW7V3	2021_Dec_01_2114	6560	884.767634737101	889.769318529644	3	0.254277762477614	PT16	3	Uncued	1122021301
907.333528159249	1	Uncued	NUW7V3	2021_Dec_01_2114	3261	907.333528159249	912.326885075941	1	0.290378092107858	PT16	5	Uncued	1122021301
923.372267932048	1	Uncued	NUW7V3	2021_Dec_01_2114	9252	923.372267932048	928.373949443801	3	0.246080891605743	PT16	4	Uncued	1122021301
939.419374209407	1	Cued	NUW7V3	2021_Dec_01_2114	9921	939.419374209407	944.421006684194	3	0.255764836960225	PT16	2	Cued	1122021301
961.976892574035	1	Cued	NUW7V3	2021_Dec_01_2114	9424	961.976892574035	966.970243503657	2	0.384217737810104	PT16	2	Cued	1122021301
975.039632235076	1	Uncued	NUW7V3	2021_Dec_01_2114	6834	975.039632235076	980.041314317026	2	0.250920440945265	PT16	1	Uncued	1122021301
991.161718313196	1	Uncued	NUW7V3	2021_Dec_01_2114	1930	991.161718313196	996.163366753508	2	0.211642116822986	PT16	2	Uncued	1122021301
1016.71195867986	1	Cued	NUW7V3	2021_Dec_01_2114	1300	1016.71195867986	1021.70529421415	3	0.203298135055775	PT16	1	Cued	1122021301
1032.75067222358	1	Uncued	NUW7V3	2021_Dec_01_2114	9254	1032.75067222358	1037.75237882401	3	0.226975006542489	PT16	3	Uncued	1122021301
1047.78074870414	1	Uncued	NUW7V3	2021_Dec_01_2114	9253	1047.78074870414	1052.78240484211	4	0.502707581741561	PT16	4	Uncued	1122021301
1063.82777971546	1	Cued	NUW7V3	2021_Dec_01_2114	9405	1063.82777971546	1068.82943756403	1	0.204494694028654	PT16	5	Cued	1122021301
1088.42773016532	1	Cued	NUW7V3	2021_Dec_01_2114	9800	1088.42773016532	1093.42939628174	3	0.220162289547261	PT16	2	Cued	1122021301
1102.45741919683	1	Uncued	NUW7V3	2021_Dec_01_2114	3068	1102.45741919683	1107.45913577572	4	0.231864733241309	PT16	4	Uncued	1122021301
1116.52051722686	1	Cued	NUW7V3	2021_Dec_01_2114	9425	1116.52051722686	1121.522179637	2	0.302964911770687	PT16	1	Cued	1122021301
1132.56752371969	1	Uncued	NUW7V3	2021_Dec_01_2114	6021	1132.56752371969	1137.56921007812	3	0.277632472506411	PT16	3	Uncued	1122021301
1155.10844820334	1	Uncued	NUW7V3	2021_Dec_01_2114	6242	1155.10844820334	1160.11014282963	2	0.567390760181297	PT16	1	Uncued	1122021301
1168.20451732037	1	Cued	NUW7V3	2021_Dec_01_2114	3210	1168.20451732037	1173.20622306551	3	0.316142455805675	PT16	3	Cued	1122021301
