onset	duration	trial_type	participant	date	neg_pics	img_start	rating_start	rating	rating_rt	pt_code	baseline	cueing	cubricID
369.61848800313	1	Cued	OKJQPW	2021_Dec_08_2042	2095	369.61848800313	374.611817531335	3	0.311464304979381	PT17	3	Cued	8122021301
384.656919978971	1	Cued	OKJQPW	2021_Dec_08_2042	9571	384.656919978971	389.658588095844	5	0.539528468320896	PT17	4	Cued	8122021301
398.753291575312	1	Uncued	OKJQPW	2021_Dec_08_2042	8485	398.753291575312	403.746710624744	5	0.695193337340243	PT17	3	Uncued	8122021301
412.783034290165	1	Cued	OKJQPW	2021_Dec_08_2042	9050	412.783034290165	417.784707823927	4	0.297076761316021	PT17	2	Cued	8122021301
435.332330550687	1	Cued	OKJQPW	2021_Dec_08_2042	1112	435.332330550687	440.325648674915	4	0.310794891473961	PT17	3	Cued	8122021301
449.387065938485	1	Cued	OKJQPW	2021_Dec_08_2042	2717	449.387065938485	454.38876883749	4	0.663546443270207	PT17	3	Cued	8122021301
474.962363553799	1	Cued	OKJQPW	2021_Dec_08_2042	9230	474.962363553799	479.964081277975	3	0.344939541811073	PT17	2	Cued	8122021301
491.042797520775	1	Cued	OKJQPW	2021_Dec_08_2042	9254	491.042797520775	496.044492436996	4	0.361700823480533	PT17	3	Cued	8122021301
504.080535279461	1	Cued	OKJQPW	2021_Dec_08_2042	1300	504.080535279461	509.082219361902	4	0.440696178640792	PT17	3	Cued	8122021301
520.177641577079	1	Uncued	OKJQPW	2021_Dec_08_2042	6000	520.177641577079	525.179328510515	3	0.426291529010996	PT17	2	Uncued	8122021301
535.232707395137	1	Cued	OKJQPW	2021_Dec_08_2042	6560	535.232707395137	540.234424834215	5	0.515858941916122	PT17	3	Cued	8122021301
559.849385769889	1	Uncued	OKJQPW	2021_Dec_08_2042	9320	559.849385769889	564.851111761949	3	0.50387450150356	PT17	4	Uncued	8122021301
575.921466608126	1	Uncued	OKJQPW	2021_Dec_08_2042	9424	575.921466608126	580.923199442574	4	0.388706868729969	PT17	3	Uncued	8122021301
588.950907117564	1	Cued	OKJQPW	2021_Dec_08_2042	9410	588.950907117564	593.952579510929	1	0.433029569373502	PT17	5	Cued	8122021301
612.500535518944	1	Uncued	OKJQPW	2021_Dec_08_2042	9423	612.500535518944	617.502276051076	4	0.345455571812636	PT17	3	Uncued	8122021301
627.572269676252	1	Cued	OKJQPW	2021_Dec_08_2042	3051	627.572269676252	632.574033016341	1	0.406138134103458	PT17	4	Cued	8122021301
642.610751259398	1	Cued	OKJQPW	2021_Dec_08_2042	6242	642.610751259398	647.612411393487	4	0.288587640140577	PT17	3	Cued	8122021301
655.648459082641	1	Uncued	OKJQPW	2021_Dec_08_2042	2799	655.648459082641	660.650168824033	3	0.425674858904131	PT17	1	Uncued	8122021301
679.239761610789	1	Cued	OKJQPW	2021_Dec_08_2042	3170	679.239761610789	684.241467645888	5	0.645037501981278	PT17	5	Cued	8122021301
693.269550226654	1	Cued	OKJQPW	2021_Dec_08_2042	3210	693.269550226654	698.262880610158	3	0.281497216859862	PT17	2	Cued	8122021301
708.341355088626	1	Uncued	OKJQPW	2021_Dec_08_2042	3230	708.341355088626	713.334654396291	3	0.640545760172245	PT17	1	Uncued	8122021301
723.413080407852	1	Uncued	OKJQPW	2021_Dec_08_2042	9041	723.413080407852	728.414757647907	3	0.610327784537731	PT17	3	Uncued	8122021301
739.468494332337	1	Uncued	OKJQPW	2021_Dec_08_2042	9921	739.468494332337	744.461876033743	4	0.372965672886494	PT17	3	Uncued	8122021301
753.506565087177	1	Uncued	OKJQPW	2021_Dec_08_2042	3068	753.506565087177	758.508271692476	1	0.39004712123733	PT17	5	Uncued	8122021301
778.073285770686	1	Uncued	OKJQPW	2021_Dec_08_2042	9000	778.073285770686	783.066650081026	2	0.904715487856265	PT17	1	Uncued	8122021301
794.111994578093	1	Uncued	OKJQPW	2021_Dec_08_2042	9405	794.111994578093	799.113705174783	1	0.553466125054001	PT17	4	Uncued	8122021301
816.661300531996	1	Cued	OKJQPW	2021_Dec_08_2042	1930	816.661300531996	821.663004571398	3	0.264891029289174	PT17	2	Cued	8122021301
832.683411704815	1	Cued	OKJQPW	2021_Dec_08_2042	3215	832.683411704815	837.685093506461	3	0.320619703565171	PT17	4	Cued	8122021301
846.713154989868	1	Uncued	OKJQPW	2021_Dec_08_2042	9425	846.713154989868	851.70652785319	4	0.432359015471775	PT17	2	Uncued	8122021301
862.760252563443	1	Cued	OKJQPW	2021_Dec_08_2042	3016	862.760252563443	867.761954322051	5	0.307415037513238	PT17	4	Cued	8122021301
878.849020557494	1	Uncued	OKJQPW	2021_Dec_08_2042	6834	878.849020557494	883.850734860478	3	0.354444757420424	PT17	2	Uncued	8122021301
892.903800420807	1	Uncued	OKJQPW	2021_Dec_08_2042	9252	892.903800420807	897.905505885707	4	0.367800241079749	PT17	4	Uncued	8122021301
916.470134509464	1	Uncued	OKJQPW	2021_Dec_08_2042	9301	916.470134509464	921.463472590654	5	0.328206484986367	PT17	4	Uncued	8122021301
930.558231664513	1	Uncued	OKJQPW	2021_Dec_08_2042	6550	930.558231664513	935.559928006232	4	0.817594513317999	PT17	3	Uncued	8122021301
953.132524304272	1	Cued	OKJQPW	2021_Dec_08_2042	2800	953.132524304272	958.134250866531	3	0.402963551746325	PT17	2	Cued	8122021301
968.179285460498	1	Cued	OKJQPW	2021_Dec_08_2042	3301	968.179285460498	973.181060774764	4	0.837045708283767	PT17	3	Cued	8122021301
981.250420908966	1	Uncued	OKJQPW	2021_Dec_08_2042	9900	981.250420908966	986.252164292092	4	0.622885559941096	PT17	2	Uncued	8122021301
997.330856301439	1	Uncued	OKJQPW	2021_Dec_08_2042	9420	997.330856301439	1002.33253810309	5	0.771180608219765	PT17	5	Uncued	8122021301
1022.9228752845	1	Cued	OKJQPW	2021_Dec_08_2042	3225	1022.9228752845	1027.92457846861	1	0.408877939802551	PT17	4	Cued	8122021301
1036.94430050805	1	Cued	OKJQPW	2021_Dec_08_2042	9253	1036.94430050805	1041.94597204611	1	0.465261772611484	PT17	5	Cued	8122021301
1050.9740446484	1	Uncued	OKJQPW	2021_Dec_08_2042	9622	1050.9740446484	1055.97575239409	3	0.404275864506417	PT17	3	Uncued	8122021301
1064.04515728891	1	Cued	OKJQPW	2021_Dec_08_2042	9800	1064.04515728891	1069.04682341009	3	0.380130792223099	PT17	2	Cued	8122021301
1089.60382932989	1	Uncued	OKJQPW	2021_Dec_08_2042	3261	1089.60382932989	1094.59717738956	1	0.861383507794926	PT17	4	Uncued	8122021301
1105.67594295457	1	Uncued	OKJQPW	2021_Dec_08_2042	6021	1105.67594295457	1110.67763558999	4	0.338788521211427	PT17	5	Uncued	8122021301
1119.72234545569	1	Cued	OKJQPW	2021_Dec_08_2042	9429	1119.72234545569	1124.72405861827	3	0.456192474058298	PT17	2	Cued	8122021301
1135.80281876639	1	Uncued	OKJQPW	2021_Dec_08_2042	9582	1135.80281876639	1140.79618336182	4	0.31287896844151	PT17	3	Uncued	8122021301
1158.36047072154	1	Uncued	OKJQPW	2021_Dec_08_2042	6315	1158.36047072154	1163.36217048445	5	0.441643564107835	PT17	4	Uncued	8122021301
1172.41525429115	1	Cued	OKJQPW	2021_Dec_08_2042	9630	1172.41525429115	1177.4086097634	4	0.464017313518525	PT17	2	Cued	8122021301
